acc_x[mg],acc_y[mg],acc_z[mg]
18.865,-0.289,913.900
20.062,0.700,1031.641
22.940,-0.780,984.441
23.890,-5.314,1004.976
22.186,-0.441,990.848
19.562,-2.292,1006.728
22.049,0.619,991.133
19.807,0.068,1006.792
22.238,1.121,997.736
23.545,0.973,1000.472
22.220,4.118,996.495
21.140,2.652,996.915
24.842,1.827,998.199
22.023,-0.907,1001.476
19.262,-0.914,996.167
20.982,1.798,998.477
19.453,-1.454,996.284
21.834,-0.212,997.055
19.779,2.645,996.997
24.628,-0.522,1000.621
19.762,2.307,998.493
20.092,1.866,998.125
21.592,2.947,1000.345
19.152,0.023,1000.382
22.009,0.101,994.927
22.318,-0.169,997.708
28.454,1.410,999.244
21.908,5.955,1004.107
27.164,0.257,1000.302
21.064,-2.371,994.177
23.394,3.615,1001.124
23.233,3.014,997.447
19.815,0.498,1000.088
22.051,0.287,997.556
22.955,1.442,997.991
20.393,-4.704,999.830
26.000,-2.245,995.478
21.551,3.094,1001.519
19.448,1.205,997.877
21.100,3.082,1001.621
18.250,-1.172,996.216
21.102,-0.261,1000.806
22.989,0.112,997.523
22.726,-4.821,1001.143
21.158,2.814,997.176
20.523,0.857,996.799
18.816,0.070,998.080
20.580,0.037,1003.844
21.896,-0.987,996.433
20.262,-1.722,997.577
21.718,0.097,997.902
19.967,0.922,1002.090
20.378,0.027,1003.132
22.721,0.277,999.778
23.838,2.717,998.047
25.997,1.180,998.396
17.174,1.531,996.606
21.271,4.294,998.380
20.340,4.680,1002.836
25.185,0.215,996.280
19.892,1.712,996.017
22.592,1.152,998.767
19.165,0.554,1000.491
27.442,-3.007,1001.107
24.316,-0.510,1000.199
17.475,5.525,998.325
23.468,0.268,999.763
21.528,0.257,998.619
23.232,1.692,998.474
19.915,2.536,1000.797
23.143,-1.875,995.658
23.718,1.618,996.987
20.384,0.279,998.979
20.483,0.538,998.747
21.372,-1.761,1001.008
20.612,1.672,996.348
24.082,0.917,998.922
23.669,-1.325,997.958
22.054,1.537,997.172
22.558,0.009,995.259
20.852,-0.771,997.615
23.031,0.648,999.585
20.505,-0.439,1001.629
24.098,0.296,999.161
21.290,0.963,997.550
20.753,-0.006,998.008
23.501,-1.120,998.484
22.683,-0.926,1001.575
21.489,2.019,1001.763
20.597,-2.752,1000.466
23.719,-0.258,999.608
21.583,3.008,997.296
27.472,-1.293,1003.643
27.330,-0.773,998.561
20.155,-0.672,1001.471
17.748,1.299,995.476
20.955,-2.793,995.011
23.639,0.802,996.231
22.103,-0.797,999.282
20.640,3.081,996.713
21.970,1.232,1002.129
22.085,-3.100,995.286
21.538,3.059,1000.009
23.875,0.387,995.731
20.179,1.689,1001.159
19.494,6.346,996.809
25.106,-0.481,998.626
22.244,2.820,999.238
18.444,3.459,999.794
19.444,-1.539,998.119
22.988,3.113,995.362
20.715,-1.308,995.668
20.397,0.582,1000.180
21.431,2.797,1001.984
20.658,1.255,1000.726
21.216,-1.464,999.024
24.114,2.254,997.114
22.275,-2.948,1000.026
22.015,-2.072,997.518
25.445,0.282,999.609
19.258,-1.264,995.026
18.507,1.338,1002.322
24.642,-0.938,1002.719
19.131,1.245,999.236
23.158,-2.148,1003.160
21.394,1.908,1000.934
21.692,-0.855,1000.299
25.699,-0.891,1001.708
21.933,-0.327,999.986
21.277,-0.655,1004.141
19.747,1.509,994.774
22.234,2.680,1001.497
25.335,0.693,1000.781
19.052,4.148,997.277
22.247,2.909,1001.995
21.213,5.489,1000.999
20.979,0.389,1000.112
20.167,1.550,998.008
23.327,0.093,999.459
22.524,1.551,996.009
20.959,-2.755,992.906
21.165,-0.426,998.498
26.870,0.357,999.625
23.036,-3.357,999.656
16.776,3.556,999.025
22.796,-2.333,998.129
23.150,-0.177,997.897
22.661,-4.775,1002.000
24.203,-0.274,999.962
23.381,-4.103,998.123
22.069,0.084,995.875
26.011,-2.230,997.895
20.133,-0.418,999.157
17.107,1.283,1000.389
21.635,-2.804,995.905
18.821,-0.886,1001.406
20.740,1.421,1000.713
23.102,0.034,1000.119
20.299,-3.647,995.152
23.067,2.006,995.720
22.335,-1.913,998.353
21.485,4.310,999.721
18.309,2.021,1000.523
22.358,-0.830,997.425
22.610,-0.250,1001.138
22.483,0.679,997.872
22.847,-2.247,1002.428
22.047,0.214,1001.290
20.462,-0.059,997.291
21.339,1.179,992.534
21.308,4.680,1002.270
22.557,-0.637,998.555
19.787,-1.514,999.329
21.173,0.084,995.137
20.223,-2.946,998.240
20.874,-2.365,995.056
21.301,0.093,1004.372
22.190,-0.073,998.162
25.325,0.615,998.640
22.918,1.405,998.643
18.495,5.109,1001.306
22.524,-0.264,998.197
19.192,3.290,999.187
18.588,-0.899,993.032
23.723,-0.339,1001.992
21.360,-7.263,999.037
27.631,13.262,1008.494
28.795,-2.247,991.329
26.948,-8.028,1000.583
24.322,13.617,1013.583
21.647,-2.174,995.549
24.099,2.854,999.424
20.466,-0.515,993.627
22.511,3.578,1005.006
25.074,3.019,997.164
22.791,5.664,999.952
21.628,4.686,1000.098
20.067,4.068,1001.518
21.929,3.598,1001.405
21.633,9.260,1001.754
23.428,3.102,997.268
24.181,5.845,998.987
23.910,-0.105,999.623
21.961,4.762,1000.193
22.769,1.107,1002.109
22.745,1.580,996.456
24.528,10.017,1004.405
27.170,3.010,1001.300
16.954,0.389,987.572
24.802,0.470,992.838
25.143,1.075,1003.336
28.241,1.466,999.690
19.708,3.529,1001.936
19.892,0.754,1002.632
17.357,1.855,1000.169
20.917,3.273,1002.350
21.495,4.042,1000.362
23.529,-1.181,998.046
20.887,0.050,1003.355
22.533,-2.151,998.973
19.976,6.255,1003.937
26.965,-7.006,1005.233
22.485,0.916,1007.755
22.933,-6.894,1001.806
12.866,-5.472,1000.664
23.177,-4.396,999.267
22.101,6.077,993.108
21.032,-0.357,1000.136
20.039,20.284,998.088
-1.825,29.608,995.991
42.644,-4.830,991.841
0.496,-4.112,992.160
112.930,-36.743,994.391
104.499,-25.206,998.869
2.130,2.656,999.917
51.470,-5.286,1002.237
31.244,-0.564,989.168
26.541,-2.139,1002.439
12.017,-3.581,986.219
17.332,1.134,1004.906
17.249,7.947,1004.469
17.709,-27.435,996.190
14.372,-48.115,1004.204
45.804,-13.217,996.237
22.974,-8.186,998.359
37.074,-24.333,1010.038
14.404,2.266,1007.659
42.746,-14.133,985.185
22.715,11.104,1076.222
48.887,-15.041,1202.434
150.876,-22.567,1256.368
376.383,19.140,1336.953
749.612,9.659,1113.062
642.824,40.412,859.896
-39.988,-3.219,712.641
-713.114,63.361,782.580
-1530.953,131.323,1201.590
-1182.953,204.215,1168.328
-238.412,114.644,807.793
476.276,136.792,380.336
490.027,141.819,361.479
590.714,233.222,928.620
201.281,149.162,1011.893
340.166,29.049,1082.790
249.690,260.515,1463.119
181.674,47.754,979.200
385.227,146.089,1306.742
229.516,46.476,1171.585
175.127,35.414,1335.109
-330.135,162.679,1174.637
-493.468,177.223,737.680
-547.080,249.540,624.254
-115.353,160.501,394.695
217.632,102.043,874.793
284.785,70.956,1148.017
255.899,18.310,1133.921
146.799,70.389,1148.302
76.309,60.150,1020.271
2.049,62.290,987.997
-3.312,10.653,1056.694
113.346,22.579,1036.420
1.581,34.810,1058.049
39.683,5.677,941.038
25.950,-13.426,992.218
11.755,-11.929,993.301
42.435,-12.122,999.872
7.449,-24.225,999.427
0.187,-20.756,999.021
12.618,-37.770,990.275
20.022,-13.734,1005.127
-9.381,-16.975,1006.028
15.070,-30.852,1007.617
18.495,-49.529,1000.117
13.976,-30.785,999.752
20.997,-12.213,1000.235
16.584,-15.963,1000.110
18.600,-11.612,998.687
18.629,-12.923,996.476
17.174,-16.407,996.783
18.948,-14.162,994.923
25.220,-12.821,1001.995
23.770,-11.904,1001.428
22.340,-10.950,1001.571
22.530,-16.136,1000.582
23.742,-10.407,997.807
18.918,-11.950,997.907
17.939,-16.271,1002.678
17.240,-13.202,998.490
23.241,-16.939,1001.190
17.268,-15.500,999.212
17.983,-11.818,996.860
23.253,-14.050,1001.851
18.090,-15.067,999.207
21.340,-13.220,1002.095
24.696,-13.740,999.019
20.029,-13.818,999.896
16.023,-15.530,999.795
18.462,-16.324,999.942
18.862,-13.422,999.236
18.014,-11.287,997.569
18.641,-13.577,994.700
17.728,-12.311,994.856
19.824,-14.872,997.144
17.144,-14.218,999.291
20.602,-14.306,996.052
20.525,-16.590,999.447
21.154,-12.696,1001.414
18.576,-11.349,1001.052
21.085,-12.108,994.721
21.239,-11.181,994.952
19.992,-13.389,997.477
19.954,-11.683,999.083
20.798,-14.483,997.226
24.540,-13.271,1003.080
21.449,-12.172,1001.694
17.035,-12.011,998.174
16.325,-16.749,996.663
17.937,-9.845,997.072
18.258,-10.397,1003.992
18.090,-12.981,998.945
17.116,-12.175,989.634
19.718,-10.838,1002.657
21.294,-13.895,999.874
20.169,-11.336,999.331
18.219,-8.671,998.708
21.999,-11.380,999.085
20.304,-10.855,997.383
14.956,-8.454,1002.090
17.293,-10.628,1002.317
20.093,-11.584,1001.352
16.575,-10.505,998.455
18.355,-14.872,1002.071
20.503,-8.140,1000.686
15.704,-12.776,1000.860
19.612,-11.917,1000.432
19.147,-10.963,1001.643
18.613,-10.241,998.955
17.911,-6.129,1000.863
21.699,-6.774,998.589
17.046,-15.513,1004.836
18.772,-6.828,1004.853
19.906,-10.520,1000.159
17.087,-7.936,996.287
13.495,-9.093,1005.650
20.224,-11.758,1001.832
17.778,-11.060,998.259
22.211,-8.707,998.902
20.877,-9.117,1005.947
21.340,-5.917,995.664
17.262,-3.643,1001.008
30.045,-15.248,994.102
-0.379,-9.058,1008.330
-35.271,-7.462,1007.763
38.990,-6.648,1002.960
-60.105,-19.177,936.773
19.221,-3.485,985.385
15.375,0.046,1002.525
20.546,0.582,993.333
15.358,3.343,1003.217
28.189,8.564,998.343
-1.131,12.624,1003.120
9.159,-3.786,995.783
17.380,-21.664,1010.543
21.571,-0.712,993.975
18.551,-12.578,997.128
21.427,-2.434,1001.894
17.302,-13.480,999.576
18.530,-7.414,994.746
23.080,-3.029,998.248
23.690,-1.851,996.003
20.617,-13.418,999.060
23.153,-16.595,995.150
19.524,-6.985,1001.463
21.945,-6.484,999.909
19.199,-5.810,1000.807
16.932,-8.939,997.993
22.403,-4.629,1001.549
20.669,-8.456,995.743
21.419,-5.070,1000.657
19.446,-7.858,998.078
20.909,-3.664,995.656
19.819,-11.946,996.710
18.425,-5.973,1001.538
20.031,-8.437,993.569
18.488,-2.948,1002.304
18.487,-7.914,998.323
24.835,-7.178,994.663
20.338,-3.970,996.659
20.306,-7.254,1001.018
23.245,-11.533,1000.733
21.369,-6.353,997.378
16.973,-9.375,997.622
15.530,-7.070,997.664
21.990,-4.568,1000.207
17.450,-8.980,997.366
21.043,-4.480,997.483
20.410,-6.711,1000.128
17.082,-9.234,998.765
20.103,-6.108,997.054
18.535,-4.870,999.397
20.511,-3.382,1001.744
24.548,-6.216,998.056
20.357,-5.122,999.094
22.796,-2.119,996.188
20.467,-3.071,1000.290
19.881,-6.211,999.546
20.978,-2.412,999.513
23.070,-5.732,1002.630
21.362,-4.309,998.531
21.121,-4.668,1001.588
23.341,-3.067,1001.861
19.288,-5.797,996.019
20.498,-8.832,1001.418
19.624,-5.359,1000.665
20.668,-10.200,997.631
21.744,-10.509,999.188
18.544,-5.902,1000.072
21.399,-4.740,1002.228
20.012,-5.800,999.457
21.772,-6.602,1003.865
23.324,-9.460,999.204
19.398,-5.641,1000.738
20.740,-8.623,998.289
19.587,-4.578,996.377
25.371,-3.313,1002.799
21.569,-3.722,997.569
17.658,-3.403,998.290
21.910,-7.595,1001.759
20.011,-5.949,999.196
19.753,-3.453,998.071
19.001,-6.342,997.766
16.101,-10.056,999.246
24.392,-3.816,997.511
18.778,-6.329,996.694
23.011,-3.077,996.596
18.902,-5.285,998.956
16.404,-5.820,1000.052
21.769,-6.845,1002.430
22.294,-5.774,993.717
22.002,-1.842,1002.424
24.341,-7.085,1000.960
24.984,-4.712,999.751
21.298,-4.815,995.105
19.330,-4.859,1005.317
21.440,-6.763,997.851
20.056,-5.720,1009.224
22.935,-3.908,990.748
19.357,-4.146,1004.849
22.166,-8.894,988.184
19.220,-7.509,1006.726
20.418,-2.653,982.359
21.642,-10.030,1015.565
17.853,-8.085,980.644
21.504,-8.053,1029.855
17.663,-2.362,955.138
23.901,-3.748,1069.988
17.214,-6.428,765.325
