acc_x[mg],acc_y[mg],acc_z[mg]
23.424,-3.904,999.424
24.888,-4.880,1001.864
22.448,-8.784,999.912
23.424,-0.976,996.008
20.984,-6.344,999.912
26.352,-2.928,1001.376
21.960,-6.832,1002.840
19.032,-4.880,995.032
19.520,-4.880,1002.352
23.912,-4.880,997.472
22.936,-4.880,996.984
20.496,-4.392,996.008
19.520,-5.856,1005.768
22.936,-7.808,997.472
19.520,-9.272,1000.400
21.960,-2.928,995.520
23.424,-1.952,999.912
24.400,-4.880,1000.400
28.304,-4.880,997.472
22.936,-1.952,997.960
23.912,-3.416,997.960
21.472,-8.296,997.960
22.936,-2.928,998.448
25.376,-8.784,998.936
24.400,-9.272,996.496
17.568,-2.928,997.960
25.376,-0.488,996.008
14.640,-7.808,997.960
20.496,-7.320,996.496
23.424,-5.856,1001.864
24.400,-2.928,996.984
23.424,-4.392,996.008
24.400,-3.904,994.544
24.888,-1.952,999.912
20.496,-6.832,999.424
20.496,3.416,1001.864
24.888,-5.368,999.912
20.984,-4.880,1002.352
19.032,-2.440,997.472
21.472,-3.416,999.424
21.960,-5.368,997.472
22.936,-4.880,998.936
19.520,-11.224,996.984
24.888,-4.880,998.936
23.424,-6.832,1000.400
16.104,-4.880,995.032
24.888,-5.856,999.424
24.888,-4.392,995.032
21.472,-5.856,998.448
20.008,-4.880,999.912
21.472,-4.880,1003.816
19.520,-0.488,997.960
24.400,-4.392,999.424
20.008,-7.808,996.496
19.032,-5.856,1005.280
21.960,-1.464,996.008
21.472,-6.832,1000.400
23.424,-6.832,1000.888
22.448,-5.856,997.960
20.496,-6.344,996.496
21.472,-5.368,999.424
25.376,-3.416,999.424
23.424,-7.320,998.448
20.008,-7.320,995.520
23.912,-3.904,998.448
22.448,-0.976,998.936
20.984,-5.856,993.568
24.400,-1.464,995.032
22.936,-4.880,998.448
16.592,-0.976,996.496
21.960,-4.880,996.008
22.936,-9.272,996.008
15.128,-2.928,998.448
20.984,-5.368,1000.400
22.936,-3.416,996.496
20.984,-2.440,1000.888
21.960,-3.904,999.912
23.912,-1.952,999.912
19.520,-1.952,999.424
21.960,-5.368,1003.816
20.008,-3.904,999.424
17.568,-2.440,1002.840
21.472,-5.856,1003.816
18.056,-3.416,1000.400
24.400,-6.344,1002.840
20.496,2.928,994.056
20.008,-2.440,998.936
20.984,-2.440,998.448
21.472,-2.440,999.424
22.448,-4.392,996.008
19.520,-4.392,1002.840
21.472,-4.392,1000.400
18.544,-6.344,998.448
20.496,-1.952,994.544
22.448,-6.832,1001.864
23.424,-7.808,995.032
19.520,-5.368,999.424
20.984,-4.392,999.424
20.008,-5.856,999.424
21.960,-4.392,999.424
21.960,-3.904,997.472
21.472,-4.880,996.008
21.472,-4.880,997.960
18.544,-1.952,1001.864
20.496,-4.880,996.984
18.056,-9.272,1000.400
20.984,-6.832,996.008
22.448,0.488,1001.864
20.984,-5.856,997.472
21.472,-6.344,1001.376
21.960,-4.880,995.032
19.520,-6.344,997.960
18.544,1.952,1000.400
24.400,0.000,1000.400
20.984,1.952,1000.400
22.936,-4.880,993.080
22.936,-6.832,1002.352
21.960,-1.464,999.912
21.960,-8.296,997.960
21.960,-2.928,998.936
20.496,-1.952,998.936
21.472,-7.320,998.448
22.936,-6.832,999.424
19.520,-5.368,1001.864
27.816,-2.440,1000.888
20.496,-3.416,997.472
23.912,-0.976,999.912
20.984,-7.808,997.472
24.400,-0.488,998.448
18.056,-2.928,993.568
20.984,-5.368,997.472
21.472,0.976,998.448
21.960,-2.928,997.960
21.472,-1.464,999.912
20.984,-6.344,995.520
21.960,-3.904,996.008
20.496,-2.928,1000.888
21.960,-4.880,996.984
20.008,-2.440,998.448
20.008,-8.784,997.960
19.520,-4.880,994.544
20.008,-2.928,998.448
21.960,-4.392,997.472
18.056,-5.856,997.960
19.520,-8.784,997.472
20.496,-1.952,999.912
20.008,-5.856,998.936
24.400,-8.784,1000.888
24.888,-5.856,999.912
20.984,-3.904,998.936
24.400,-6.344,997.960
22.936,-6.344,1001.376
24.888,-0.976,997.960
22.936,-3.904,1005.768
23.912,-1.464,996.984
21.472,-3.904,1001.376
19.032,-1.952,993.568
5.856,13.664,1001.864
-35.624,84.424,972.096
28.792,-10.248,982.344
20.496,5.368,997.472
21.960,8.296,1003.328
23.424,1.952,998.448
21.960,5.368,997.472
20.984,2.928,1004.792
20.984,5.856,998.936
21.472,6.344,1000.888
20.496,5.368,996.008
24.888,8.784,1002.840
21.960,9.272,998.448
21.960,10.248,999.912
26.352,5.856,996.496
25.376,2.928,1001.864
18.544,3.904,994.056
22.448,5.856,1001.864
22.448,7.320,996.984
20.984,4.392,1001.376
22.936,3.904,1000.400
20.496,7.808,997.960
20.496,3.904,1000.400
22.936,6.344,997.960
21.472,4.392,1002.352
19.032,8.296,998.448
25.864,7.320,1001.864
21.960,6.344,997.960
18.544,4.880,1001.864
19.520,6.832,998.936
20.496,2.928,1001.376
22.448,7.808,997.472
20.008,7.320,1004.304
21.472,8.784,996.008
25.864,1.952,995.520
21.960,4.392,996.008
21.472,8.296,1000.888
22.448,7.808,995.520
17.568,3.904,997.472
20.008,8.296,1000.400
20.984,5.856,1005.280
22.936,3.416,996.496
25.864,6.832,1002.352
19.520,6.344,996.008
23.424,4.880,999.912
23.424,2.928,998.448
22.448,6.832,1001.864
22.448,0.488,999.424
22.448,9.272,998.936
20.008,9.272,997.960
20.496,7.320,997.472
21.472,3.416,997.472
21.960,7.808,998.448
19.032,7.320,1003.816
20.496,3.904,997.472
16.592,14.152,1008.696
-21.472,10.248,998.936
29.280,7.808,997.960
11.224,-12.200,1000.888
21.960,-2.928,993.080
20.496,0.976,997.472
23.424,6.832,1000.888
20.496,8.296,995.032
23.912,5.368,1003.328
18.056,6.344,1000.888
22.448,6.344,996.496
21.960,3.904,998.448
18.056,5.856,1000.888
-25.864,109.800,992.592
-1.952,-4.880,1003.816
35.136,106.872,1016.504
-14.640,82.960,969.656
85.888,42.456,967.216
37.088,-226.432,947.696
-109.312,-106.384,1014.064
64.904,-42.456,1070.672
261.080,-363.560,1418.616
-316.224,-142.496,1364.448
0.000,40.992,924.272
188.856,24.400,1091.656
-298.656,286.944,261.568
48.312,146.888,-566.080
-2577.128,208.376,938.424
-542.168,349.408,-690.520
-216.672,-161.528,63.928
-663.192,160.552,-878.888
-959.408,46.848,-656.848
-620.736,-155.672,-998.936
-516.304,8.296,-1001.376
-47.824,-202.032,-1013.088
-144.936,-155.184,-1316.624
61.976,-183.000,-704.184
-147.864,-133.224,-1065.792
74.664,-248.392,-752.496
-1238.544,-2725.968,673.928
69.296,-119.072,-915.976
265.960,-153.232,-1123.864
69.784,-135.176,-935.984
289.384,-163.480,-1018.456
199.592,-313.784,-941.840
-93.208,104.432,-911.096
162.992,6.832,-845.216
68.320,-105.896,-1018.944
-95.648,-31.720,-928.176
138.104,-9.760,-980.880
120.048,-19.032,-1017.480
109.312,-4.880,-984.296
99.552,-29.768,-1002.840
93.208,-22.936,-963.312
98.088,14.152,-1005.768
75.640,-40.016,-998.448
74.176,-12.688,-1007.720
71.736,-13.664,-969.168
74.664,-15.616,-1001.376
70.760,-12.200,-987.224
83.448,-12.688,-985.272
80.032,-14.152,-989.664
94.672,1.952,-997.960
69.296,-13.664,-994.056
70.272,-11.224,-999.912
72.224,-8.296,-979.416
66.856,-12.688,-989.664
69.296,-11.712,-973.560
66.856,-6.344,-994.544
70.760,-3.416,-985.272
65.392,-12.200,-985.272
68.320,-13.664,-990.640
63.928,-6.832,-991.128
65.880,-11.224,-1003.816
70.760,-12.688,-997.960
65.392,-7.320,-998.936
63.440,-9.272,-989.176
69.296,-8.784,-984.296
78.080,5.368,-1012.600
57.584,-3.904,-997.960
62.464,-8.784,-990.152
58.560,-8.784,-1001.864
57.096,9.760,-1001.864
58.560,-9.272,-1010.160
75.152,-20.008,-986.736
56.120,-15.616,-983.320
64.904,-9.760,-1002.840
61.000,-4.880,-995.032
55.632,-11.224,-995.520
64.904,-11.712,-992.104
63.440,-8.784,-991.616
62.464,-8.296,-993.080
58.560,-4.880,-988.688
52.704,-5.368,-999.912
57.096,-0.488,-992.592
53.192,-5.368,-1001.864
53.192,-5.856,-992.592
45.384,-3.904,-1004.792
51.240,-5.368,-984.784
45.384,-4.392,-994.544
47.824,-3.904,-995.520
48.800,-8.296,-998.448
49.288,-3.904,-995.032
51.728,-3.416,-995.520
47.824,-0.976,-993.080
30.744,-4.880,-984.784
45.872,-5.368,-987.712
40.504,-0.488,-999.424
